---
ADSL:
  primary: ["STUDYID", "USUBJID"]
  foreign: NULL
  parent: NULL

ADAE:
  primary: ["STUDYID", "USUBJID", "ASTDTM", "AETERM", "AESEQ"]
  foreign: ["STUDYID", "USUBJID"]
  parent: "ADSL"

ADEG:
  primary: ["STUDYID", "USUBJID", "PARAMCD", "AVISIT"]
  foreign: ["STUDYID", "USUBJID"]
  parent: "ADSL"

ADTTE:
  primary: ["STUDYID", "USUBJID", "PARAMCD"]
  foreign: ["STUDYID", "USUBJID"]
  parent: "ADSL"

ADAETTE:
  primary: ["STUDYID", "USUBJID", "PARAMCD"]
  foreign: ["STUDYID", "USUBJID"]
  parent: "ADSL"

ADCM:
  primary:
    [
      "STUDYID",
      "USUBJID",
      "ASTDTM",
      "CMSEQ",
      "ATC1CD",
      "ATC2CD",
      "ATC3CD",
      "ATC4CD",
    ]
  foreign: ["STUDYID", "USUBJID"]
  parent: "ADSL"

ADEX:
  primary:
    ["STUDYID", "USUBJID", "PARCAT1", "PARAMCD", "AVISITN", "ASTDTM", "EXSEQ"]
  foreign: ["STUDYID", "USUBJID"]
  parent: "ADSL"

ADLB:
  primary: ["STUDYID", "USUBJID", "PARAMCD", "AVISIT"]
  foreign: ["STUDYID", "USUBJID"]
  parent: "ADSL"

ADMH:
  primary: ["STUDYID", "USUBJID", "ASTDTM", "MHSEQ"]
  foreign: ["STUDYID", "USUBJID"]
  parent: "ADSL"

ADQS:
  primary: ["STUDYID", "USUBJID", "PARAMCD", "AVISIT"]
  foreign: ["STUDYID", "USUBJID"]
  parent: "ADSL"

ADRS:
  primary: ["STUDYID", "USUBJID", "PARAMCD", "AVISIT"]
  foreign: ["STUDYID", "USUBJID"]
  parent: "ADSL"

ADSAFTTE:
  primary: ["STUDYID", "USUBJID", "PARAMCD"]
  foreign: ["STUDYID", "USUBJID"]
  parent: "ADSL"

ADVS:
  primary: ["STUDYID", "USUBJID", "PARAMCD", "AVISIT"]
  foreign: ["STUDYID", "USUBJID"]
  parent: "ADSL"

ADDV:
  primary: ["STUDYID", "USUBJID", "ASTDT", "DVTERM", "DVSEQ"]
  foreign: ["STUDYID", "USUBJID"]
  parent: "ADSL"

ADSUB:
  primary: ["STUDYID", "USUBJID", "PARAMCD", "AVISITN", "ADTM", "SRCSEQ"]
  foreign: ["STUDYID", "USUBJID"]
  parent: "ADSL"

ADHY:
  primary: ["STUDYID", "USUBJID", "PARAMCD", "AVISITN", "ADTM", "SRCSEQ"]
  foreign: ["STUDYID", "USUBJID"]
  parent: "ADSL"

ADQLQC:
  primary: ["STUDYID", "USUBJID", "PARCAT1N", "PARAMCD", "BASETYPE", "AVISITN", "ATPTN", "ADTM", "QSSEQ"]
  foreign: ["STUDYID", "USUBJID"]
  parent: "ADSL"
